rt,stimulus,response,trial_type,trial_index,plugin_version,time_elapsed,slider_values,block,choices,label_selected
3808,<h3>Welcome to the experiment</h3>   <p style='text-align:left'>This experiment is designed to test your perceptual word learning boundaries.  By clicking the option below you consent to participate in the expeirment.</p>,0,html-button-response,0,2.0.0,3819,"[""50"",""21"",""50""]",,,
6045,<h3>Observation Instructions</h3>  <p>You will observe three objects being named several times.   Just sit back and watch.</p>,0,html-button-response,1,2.0.0,9869,"[""50"",""21"",""50""]",,,
null,imagesDupe/object1.jpg,null,image-button-response,2,2.0.0,10882,"[""50"",""21"",""50""]",,,
null,imagesDupe/object1.jpg,null,image-button-response,3,2.0.0,12887,"[""50"",""21"",""50""]",observation,,
null,imagesDupe/object1.jpg,null,image-button-response,4,2.0.0,13903,"[""50"",""21"",""50""]",,,
null,imagesDupe/object1.jpg,null,image-button-response,5,2.0.0,15907,"[""50"",""21"",""50""]",observation,,
null,imagesDupe/object2.jpg,null,image-button-response,6,2.0.0,16914,"[""50"",""21"",""50""]",,,
null,imagesDupe/object2.jpg,null,image-button-response,7,2.0.0,18920,"[""50"",""21"",""50""]",observation,,
null,imagesDupe/object1.jpg,null,image-button-response,8,2.0.0,19927,"[""50"",""21"",""50""]",,,
null,imagesDupe/object1.jpg,null,image-button-response,9,2.0.0,21931,"[""50"",""21"",""50""]",observation,,
null,imagesDupe/object4.jpg,null,image-button-response,10,2.0.0,22939,"[""50"",""21"",""50""]",,,
null,imagesDupe/object4.jpg,null,image-button-response,11,2.0.0,24944,"[""50"",""21"",""50""]",observation,,
null,imagesDupe/object1.jpg,null,image-button-response,12,2.0.0,25951,"[""50"",""21"",""50""]",,,
null,imagesDupe/object1.jpg,null,image-button-response,13,2.0.0,27955,"[""50"",""21"",""50""]",observation,,
null,imagesDupe/object1.jpg,null,image-button-response,14,2.0.0,28962,"[""50"",""21"",""50""]",,,
null,imagesDupe/object1.jpg,null,image-button-response,15,2.0.0,30966,"[""50"",""21"",""50""]",observation,,
null,imagesDupe/object2.jpg,null,image-button-response,16,2.0.0,31979,"[""50"",""21"",""50""]",,,
null,imagesDupe/object2.jpg,null,image-button-response,17,2.0.0,33985,"[""50"",""21"",""50""]",observation,,
null,imagesDupe/object4.jpg,null,image-button-response,18,2.0.0,34995,"[""50"",""21"",""50""]",,,
null,imagesDupe/object4.jpg,null,image-button-response,19,2.0.0,36999,"[""50"",""21"",""50""]",observation,,
null,imagesDupe/object2.jpg,null,image-button-response,20,2.0.0,38006,"[""50"",""21"",""50""]",,,
null,imagesDupe/object2.jpg,null,image-button-response,21,2.0.0,40010,"[""50"",""21"",""50""]",observation,,
null,imagesDupe/object2.jpg,null,image-button-response,22,2.0.0,41016,"[""50"",""21"",""50""]",,,
null,imagesDupe/object2.jpg,null,image-button-response,23,2.0.0,43019,"[""50"",""21"",""50""]",observation,,
null,imagesDupe/object1.jpg,null,image-button-response,24,2.0.0,44026,"[""50"",""21"",""50""]",,,
null,imagesDupe/object1.jpg,null,image-button-response,25,2.0.0,46030,"[""50"",""21"",""50""]",observation,,
null,imagesDupe/object1.jpg,null,image-button-response,26,2.0.0,47037,"[""50"",""21"",""50""]",,,
null,imagesDupe/object1.jpg,null,image-button-response,27,2.0.0,49041,"[""50"",""21"",""50""]",observation,,
null,imagesDupe/object1.jpg,null,image-button-response,28,2.0.0,50048,"[""50"",""21"",""50""]",,,
null,imagesDupe/object1.jpg,null,image-button-response,29,2.0.0,52055,"[""50"",""21"",""50""]",observation,,
null,imagesDupe/object4.jpg,null,image-button-response,30,2.0.0,53062,"[""50"",""21"",""50""]",,,
null,imagesDupe/object4.jpg,null,image-button-response,31,2.0.0,55066,"[""50"",""21"",""50""]",observation,,
null,imagesDupe/object1.jpg,null,image-button-response,32,2.0.0,56073,"[""50"",""21"",""50""]",,,
null,imagesDupe/object1.jpg,null,image-button-response,33,2.0.0,58078,"[""50"",""21"",""50""]",observation,,
null,imagesDupe/object4.jpg,null,image-button-response,34,2.0.0,59088,"[""50"",""21"",""50""]",,,
null,imagesDupe/object4.jpg,null,image-button-response,35,2.0.0,61093,"[""50"",""21"",""50""]",observation,,
null,imagesDupe/object2.jpg,null,image-button-response,36,2.0.0,62100,"[""50"",""21"",""50""]",,,
null,imagesDupe/object2.jpg,null,image-button-response,37,2.0.0,64104,"[""50"",""21"",""50""]",observation,,
null,imagesDupe/object1.jpg,null,image-button-response,38,2.0.0,65111,"[""50"",""21"",""50""]",,,
null,imagesDupe/object1.jpg,null,image-button-response,39,2.0.0,67115,"[""50"",""21"",""50""]",observation,,
null,imagesDupe/object4.jpg,null,image-button-response,40,2.0.0,68122,"[""50"",""21"",""50""]",,,
null,imagesDupe/object4.jpg,null,image-button-response,41,2.0.0,70126,"[""50"",""21"",""50""]",observation,,
null,imagesDupe/object4.jpg,null,image-button-response,42,2.0.0,71132,"[""50"",""21"",""50""]",,,
null,imagesDupe/object4.jpg,null,image-button-response,43,2.0.0,73146,"[""50"",""21"",""50""]",observation,,
null,imagesDupe/object4.jpg,null,image-button-response,44,2.0.0,74155,"[""50"",""21"",""50""]",,,
null,imagesDupe/object4.jpg,null,image-button-response,45,2.0.0,76160,"[""50"",""21"",""50""]",observation,,
null,imagesDupe/object4.jpg,null,image-button-response,46,2.0.0,77167,"[""50"",""21"",""50""]",,,
null,imagesDupe/object4.jpg,null,image-button-response,47,2.0.0,79171,"[""50"",""21"",""50""]",observation,,
null,imagesDupe/object4.jpg,null,image-button-response,48,2.0.0,80177,"[""50"",""21"",""50""]",,,
null,imagesDupe/object4.jpg,null,image-button-response,49,2.0.0,82181,"[""50"",""21"",""50""]",observation,,
null,imagesDupe/object2.jpg,null,image-button-response,50,2.0.0,83188,"[""50"",""21"",""50""]",,,
null,imagesDupe/object2.jpg,null,image-button-response,51,2.0.0,85191,"[""50"",""21"",""50""]",observation,,
null,imagesDupe/object2.jpg,null,image-button-response,52,2.0.0,86198,"[""50"",""21"",""50""]",,,
null,imagesDupe/object2.jpg,null,image-button-response,53,2.0.0,88204,"[""50"",""21"",""50""]",observation,,
null,imagesDupe/object2.jpg,null,image-button-response,54,2.0.0,89210,"[""50"",""21"",""50""]",,,
null,imagesDupe/object2.jpg,null,image-button-response,55,2.0.0,91214,"[""50"",""21"",""50""]",observation,,
null,imagesDupe/object2.jpg,null,image-button-response,56,2.0.0,92220,"[""50"",""21"",""50""]",,,
null,imagesDupe/object2.jpg,null,image-button-response,57,2.0.0,94225,"[""50"",""21"",""50""]",observation,,
null,imagesDupe/object2.jpg,null,image-button-response,58,2.0.0,95231,"[""50"",""21"",""50""]",,,
null,imagesDupe/object2.jpg,null,image-button-response,59,2.0.0,97235,"[""50"",""21"",""50""]",observation,,
null,imagesDupe/object4.jpg,null,image-button-response,60,2.0.0,98242,"[""50"",""21"",""50""]",,,
null,imagesDupe/object4.jpg,null,image-button-response,61,2.0.0,100246,"[""50"",""21"",""50""]",observation,,
4337,"<h3>Production Instructions</h3>  <p>Next, you will be shown the same objects again.   Please name these objects like you saw in the observation stage.   This will repeat several times.</p>",0,html-button-response,62,2.0.0,104589,"[""50"",""21"",""50""]",,,
3312,imagesDupe/object1.jpg,1,image-button-response,63,2.0.0,107906,"[""50"",""21"",""50""]",production,"[""pax"",""fep""]",fep
1311,imagesDupe/object1.jpg,0,image-button-response,64,2.0.0,109223,"[""50"",""21"",""50""]",,,
2348,imagesDupe/object1.jpg,0,image-button-response,65,2.0.0,111575,"[""50"",""21"",""50""]",production,"[""fep"",""pax""]",fep
1946,imagesDupe/object1.jpg,0,image-button-response,66,2.0.0,113526,"[""50"",""21"",""50""]",,,
2569,imagesDupe/object4.jpg,0,image-button-response,67,2.0.0,116099,"[""50"",""21"",""50""]",production,"[""cal"",""buv""]",cal
1526,imagesDupe/object4.jpg,0,image-button-response,68,2.0.0,117629,"[""50"",""21"",""50""]",,,
4032,imagesDupe/object1.jpg,0,image-button-response,69,2.0.0,121666,"[""50"",""21"",""50""]",production,"[""fep"",""pax""]",fep
862,imagesDupe/object1.jpg,0,image-button-response,70,2.0.0,122533,"[""50"",""21"",""50""]",,,
2250,imagesDupe/object2.jpg,0,image-button-response,71,2.0.0,124785,"[""50"",""21"",""50""]",production,"[""tas"",""qar""]",tas
895,imagesDupe/object2.jpg,0,image-button-response,72,2.0.0,125685,"[""50"",""21"",""50""]",,,
1834,imagesDupe/object1.jpg,0,image-button-response,73,2.0.0,127522,"[""50"",""21"",""50""]",production,"[""pax"",""fep""]",pax
777,imagesDupe/object1.jpg,0,image-button-response,74,2.0.0,128304,"[""50"",""21"",""50""]",,,
1582,imagesDupe/object1.jpg,0,image-button-response,75,2.0.0,129890,"[""50"",""21"",""50""]",production,"[""fep"",""pax""]",fep
778,imagesDupe/object1.jpg,0,image-button-response,76,2.0.0,130673,"[""50"",""21"",""50""]",,,
1132,imagesDupe/object1.jpg,0,image-button-response,77,2.0.0,131808,"[""50"",""21"",""50""]",production,"[""fep"",""pax""]",fep
696,imagesDupe/object1.jpg,0,image-button-response,78,2.0.0,132508,"[""50"",""21"",""50""]",,,
1531,imagesDupe/object2.jpg,1,image-button-response,79,2.0.0,134043,"[""50"",""21"",""50""]",production,"[""tas"",""qar""]",qar
779,imagesDupe/object2.jpg,0,image-button-response,80,2.0.0,134827,"[""50"",""21"",""50""]",,,
1581,imagesDupe/object2.jpg,1,image-button-response,81,2.0.0,136412,"[""50"",""21"",""50""]",production,"[""tas"",""qar""]",qar
761,imagesDupe/object2.jpg,0,image-button-response,82,2.0.0,137178,"[""50"",""21"",""50""]",,,
1649,imagesDupe/object2.jpg,1,image-button-response,83,2.0.0,138830,"[""50"",""21"",""50""]",production,"[""qar"",""tas""]",tas
730,imagesDupe/object2.jpg,0,image-button-response,84,2.0.0,139566,"[""50"",""21"",""50""]",,,
2542,imagesDupe/object4.jpg,1,image-button-response,85,2.0.0,142116,"[""50"",""21"",""50""]",production,"[""cal"",""buv""]",buv
962,imagesDupe/object4.jpg,0,image-button-response,86,2.0.0,143083,"[""50"",""21"",""50""]",,,
1882,imagesDupe/object2.jpg,1,image-button-response,87,2.0.0,144968,"[""50"",""21"",""50""]",production,"[""tas"",""qar""]",qar
829,imagesDupe/object2.jpg,0,image-button-response,88,2.0.0,145802,"[""50"",""21"",""50""]",,,
1631,imagesDupe/object4.jpg,0,image-button-response,89,2.0.0,147436,"[""50"",""21"",""50""]",production,"[""cal"",""buv""]",cal
795,imagesDupe/object4.jpg,0,image-button-response,90,2.0.0,148236,"[""50"",""21"",""50""]",,,
1282,imagesDupe/object1.jpg,0,image-button-response,91,2.0.0,149521,"[""50"",""21"",""50""]",production,"[""fep"",""pax""]",fep
778,imagesDupe/object1.jpg,0,image-button-response,92,2.0.0,150305,"[""50"",""21"",""50""]",,,
1481,imagesDupe/object4.jpg,1,image-button-response,93,2.0.0,151789,"[""50"",""21"",""50""]",production,"[""cal"",""buv""]",buv
795,imagesDupe/object4.jpg,0,image-button-response,94,2.0.0,152590,"[""50"",""21"",""50""]",,,
1181,imagesDupe/object4.jpg,0,image-button-response,95,2.0.0,153774,"[""50"",""21"",""50""]",production,"[""buv"",""cal""]",buv
795,imagesDupe/object4.jpg,0,image-button-response,96,2.0.0,154574,"[""50"",""21"",""50""]",,,
2145,imagesDupe/object2.jpg,0,image-button-response,97,2.0.0,156727,"[""50"",""21"",""50""]",production,"[""qar"",""tas""]",qar
795,imagesDupe/object2.jpg,0,image-button-response,98,2.0.0,157526,"[""50"",""21"",""50""]",,,
1716,imagesDupe/object4.jpg,0,image-button-response,99,2.0.0,159245,"[""50"",""21"",""50""]",production,"[""cal"",""buv""]",cal
712,imagesDupe/object4.jpg,0,image-button-response,100,2.0.0,159962,"[""50"",""21"",""50""]",,,
1599,imagesDupe/object1.jpg,0,image-button-response,101,2.0.0,161564,"[""50"",""21"",""50""]",production,"[""fep"",""pax""]",fep
712,imagesDupe/object1.jpg,0,image-button-response,102,2.0.0,162280,"[""50"",""21"",""50""]",,,
1732,imagesDupe/object2.jpg,0,image-button-response,103,2.0.0,164015,"[""50"",""21"",""50""]",production,"[""qar"",""tas""]",qar
712,imagesDupe/object2.jpg,0,image-button-response,104,2.0.0,164735,"[""50"",""21"",""50""]",,,
1578,imagesDupe/object4.jpg,1,image-button-response,105,2.0.0,166316,"[""50"",""21"",""50""]",production,"[""cal"",""buv""]",buv
730,imagesDupe/object4.jpg,0,image-button-response,106,2.0.0,167050,"[""50"",""21"",""50""]",,,
1816,imagesDupe/object4.jpg,0,image-button-response,107,2.0.0,168869,"[""50"",""21"",""50""]",production,"[""cal"",""buv""]",cal
711,imagesDupe/object4.jpg,0,image-button-response,108,2.0.0,169585,"[""50"",""21"",""50""]",,,
1181,imagesDupe/object2.jpg,0,image-button-response,109,2.0.0,170769,"[""50"",""21"",""50""]",production,"[""qar"",""tas""]",qar
746,imagesDupe/object2.jpg,0,image-button-response,110,2.0.0,171520,"[""50"",""21"",""50""]",,,
1114,imagesDupe/object4.jpg,0,image-button-response,111,2.0.0,172638,"[""50"",""21"",""50""]",production,"[""buv"",""cal""]",buv
679,imagesDupe/object4.jpg,0,image-button-response,112,2.0.0,173325,"[""50"",""21"",""50""]",,,
2029,imagesDupe/object1.jpg,1,image-button-response,113,2.0.0,175356,"[""50"",""21"",""50""]",production,"[""pax"",""fep""]",fep
696,imagesDupe/object1.jpg,0,image-button-response,114,2.0.0,176057,"[""50"",""21"",""50""]",,,
1515,imagesDupe/object1.jpg,1,image-button-response,115,2.0.0,177574,"[""50"",""21"",""50""]",production,"[""fep"",""pax""]",pax
779,imagesDupe/object1.jpg,0,image-button-response,116,2.0.0,178358,"[""50"",""21"",""50""]",,,
1449,imagesDupe/object4.jpg,0,image-button-response,117,2.0.0,179809,"[""50"",""21"",""50""]",production,"[""cal"",""buv""]",cal
729,imagesDupe/object4.jpg,0,image-button-response,118,2.0.0,180546,"[""50"",""21"",""50""]",,,
1597,imagesDupe/object2.jpg,0,image-button-response,119,2.0.0,182146,"[""50"",""21"",""50""]",production,"[""qar"",""tas""]",qar
693,imagesDupe/object2.jpg,0,image-button-response,120,2.0.0,182845,"[""50"",""21"",""50""]",,,
1463,imagesDupe/object2.jpg,0,image-button-response,121,2.0.0,184313,"[""50"",""21"",""50""]",production,"[""qar"",""tas""]",qar
694,imagesDupe/object2.jpg,0,image-button-response,122,2.0.0,185013,"[""50"",""21"",""50""]",,,
8188,"<h3>Perception Instructions</h3>  <p>You will be shown the same objects again.   <em> Please read the instructions carefully. </em>  During the Observation Phase, you saw different object labels.   Please estimate how often you saw each label compared to the others by adjusting the slider.   Move the slider to reflect the ratio of words you observed for each object in the Observation Phase.</p>",0,html-button-response,123,2.0.0,193204,"[""50"",""21"",""50""]",,,
7177,imagesDupe/object6.jpg,50,image-slider-response,124,null,200396,"[""50"",""21"",""50""]",,,
,,,html-keyboard-response,125,null,215507,"[""50"",""21"",""50""]",,,
2381,<h3>Finished!</h3>  <p style='text-align:left'> Thanks for taking part in our expeirment!</p>  <p style='text-align:left'>Click Continue to finish the experiment and see your raw data.   Please notify a team member when the raw data is shown on screen.</p>,0,html-button-response,126,2.0.0,217891,"[""50"",""21"",""50""]",,,