rt,stimulus,response,trial_type,trial_index,plugin_version,time_elapsed,slider_values,block,choices,label_selected
22888,<h3>Welcome to the experiment</h3>   <p style='text-align:left'>This experiment is designed to test your perceptual word learning boundaries.  By clicking the option below you consent to participate in the expeirment.</p>,0,html-button-response,0,2.0.0,22891,"[""21"",""36"",""50""]",,,
16108,<h3>Observation Instructions</h3>  <p>You will observe three objects being named several times.   Just sit back and watch.</p>,0,html-button-response,1,2.0.0,39000,"[""21"",""36"",""50""]",,,
null,imagesDupe/object4.jpg,null,image-button-response,2,2.0.0,40003,"[""21"",""36"",""50""]",,,
null,imagesDupe/object4.jpg,null,image-button-response,3,2.0.0,42007,"[""21"",""36"",""50""]",observation,,
null,imagesDupe/object1.jpg,null,image-button-response,4,2.0.0,43012,"[""21"",""36"",""50""]",,,
null,imagesDupe/object1.jpg,null,image-button-response,5,2.0.0,45016,"[""21"",""36"",""50""]",observation,,
null,imagesDupe/object2.jpg,null,image-button-response,6,2.0.0,46020,"[""21"",""36"",""50""]",,,
null,imagesDupe/object2.jpg,null,image-button-response,7,2.0.0,48025,"[""21"",""36"",""50""]",observation,,
null,imagesDupe/object2.jpg,null,image-button-response,8,2.0.0,49030,"[""21"",""36"",""50""]",,,
null,imagesDupe/object2.jpg,null,image-button-response,9,2.0.0,51034,"[""21"",""36"",""50""]",observation,,
null,imagesDupe/object1.jpg,null,image-button-response,10,2.0.0,52039,"[""21"",""36"",""50""]",,,
null,imagesDupe/object1.jpg,null,image-button-response,11,2.0.0,54042,"[""21"",""36"",""50""]",observation,,
null,imagesDupe/object1.jpg,null,image-button-response,12,2.0.0,55046,"[""21"",""36"",""50""]",,,
null,imagesDupe/object1.jpg,null,image-button-response,13,2.0.0,57049,"[""21"",""36"",""50""]",observation,,
null,imagesDupe/object2.jpg,null,image-button-response,14,2.0.0,58053,"[""21"",""36"",""50""]",,,
null,imagesDupe/object2.jpg,null,image-button-response,15,2.0.0,60056,"[""21"",""36"",""50""]",observation,,
null,imagesDupe/object4.jpg,null,image-button-response,16,2.0.0,61060,"[""21"",""36"",""50""]",,,
null,imagesDupe/object4.jpg,null,image-button-response,17,2.0.0,63063,"[""21"",""36"",""50""]",observation,,
null,imagesDupe/object1.jpg,null,image-button-response,18,2.0.0,64068,"[""21"",""36"",""50""]",,,
null,imagesDupe/object1.jpg,null,image-button-response,19,2.0.0,66071,"[""21"",""36"",""50""]",observation,,
null,imagesDupe/object4.jpg,null,image-button-response,20,2.0.0,67076,"[""21"",""36"",""50""]",,,
null,imagesDupe/object4.jpg,null,image-button-response,21,2.0.0,69080,"[""21"",""36"",""50""]",observation,,
null,imagesDupe/object1.jpg,null,image-button-response,22,2.0.0,70083,"[""21"",""36"",""50""]",,,
null,imagesDupe/object1.jpg,null,image-button-response,23,2.0.0,72087,"[""21"",""36"",""50""]",observation,,
null,imagesDupe/object4.jpg,null,image-button-response,24,2.0.0,73091,"[""21"",""36"",""50""]",,,
null,imagesDupe/object4.jpg,null,image-button-response,25,2.0.0,75094,"[""21"",""36"",""50""]",observation,,
null,imagesDupe/object4.jpg,null,image-button-response,26,2.0.0,76098,"[""21"",""36"",""50""]",,,
null,imagesDupe/object4.jpg,null,image-button-response,27,2.0.0,78102,"[""21"",""36"",""50""]",observation,,
null,imagesDupe/object4.jpg,null,image-button-response,28,2.0.0,79106,"[""21"",""36"",""50""]",,,
null,imagesDupe/object4.jpg,null,image-button-response,29,2.0.0,81110,"[""21"",""36"",""50""]",observation,,
null,imagesDupe/object2.jpg,null,image-button-response,30,2.0.0,82113,"[""21"",""36"",""50""]",,,
null,imagesDupe/object2.jpg,null,image-button-response,31,2.0.0,84117,"[""21"",""36"",""50""]",observation,,
null,imagesDupe/object1.jpg,null,image-button-response,32,2.0.0,85122,"[""21"",""36"",""50""]",,,
null,imagesDupe/object1.jpg,null,image-button-response,33,2.0.0,87125,"[""21"",""36"",""50""]",observation,,
null,imagesDupe/object2.jpg,null,image-button-response,34,2.0.0,88129,"[""21"",""36"",""50""]",,,
null,imagesDupe/object2.jpg,null,image-button-response,35,2.0.0,90133,"[""21"",""36"",""50""]",observation,,
null,imagesDupe/object2.jpg,null,image-button-response,36,2.0.0,91138,"[""21"",""36"",""50""]",,,
null,imagesDupe/object2.jpg,null,image-button-response,37,2.0.0,93141,"[""21"",""36"",""50""]",observation,,
null,imagesDupe/object4.jpg,null,image-button-response,38,2.0.0,94145,"[""21"",""36"",""50""]",,,
null,imagesDupe/object4.jpg,null,image-button-response,39,2.0.0,96148,"[""21"",""36"",""50""]",observation,,
null,imagesDupe/object1.jpg,null,image-button-response,40,2.0.0,97153,"[""21"",""36"",""50""]",,,
null,imagesDupe/object1.jpg,null,image-button-response,41,2.0.0,99156,"[""21"",""36"",""50""]",observation,,
null,imagesDupe/object4.jpg,null,image-button-response,42,2.0.0,100161,"[""21"",""36"",""50""]",,,
null,imagesDupe/object4.jpg,null,image-button-response,43,2.0.0,102163,"[""21"",""36"",""50""]",observation,,
null,imagesDupe/object2.jpg,null,image-button-response,44,2.0.0,103167,"[""21"",""36"",""50""]",,,
null,imagesDupe/object2.jpg,null,image-button-response,45,2.0.0,105169,"[""21"",""36"",""50""]",observation,,
null,imagesDupe/object1.jpg,null,image-button-response,46,2.0.0,106174,"[""21"",""36"",""50""]",,,
null,imagesDupe/object1.jpg,null,image-button-response,47,2.0.0,108177,"[""21"",""36"",""50""]",observation,,
null,imagesDupe/object2.jpg,null,image-button-response,48,2.0.0,109181,"[""21"",""36"",""50""]",,,
null,imagesDupe/object2.jpg,null,image-button-response,49,2.0.0,111184,"[""21"",""36"",""50""]",observation,,
null,imagesDupe/object1.jpg,null,image-button-response,50,2.0.0,112189,"[""21"",""36"",""50""]",,,
null,imagesDupe/object1.jpg,null,image-button-response,51,2.0.0,114192,"[""21"",""36"",""50""]",observation,,
null,imagesDupe/object1.jpg,null,image-button-response,52,2.0.0,115197,"[""21"",""36"",""50""]",,,
null,imagesDupe/object1.jpg,null,image-button-response,53,2.0.0,117201,"[""21"",""36"",""50""]",observation,,
null,imagesDupe/object4.jpg,null,image-button-response,54,2.0.0,118205,"[""21"",""36"",""50""]",,,
null,imagesDupe/object4.jpg,null,image-button-response,55,2.0.0,120208,"[""21"",""36"",""50""]",observation,,
null,imagesDupe/object2.jpg,null,image-button-response,56,2.0.0,121213,"[""21"",""36"",""50""]",,,
null,imagesDupe/object2.jpg,null,image-button-response,57,2.0.0,123216,"[""21"",""36"",""50""]",observation,,
null,imagesDupe/object2.jpg,null,image-button-response,58,2.0.0,124220,"[""21"",""36"",""50""]",,,
null,imagesDupe/object2.jpg,null,image-button-response,59,2.0.0,126224,"[""21"",""36"",""50""]",observation,,
null,imagesDupe/object4.jpg,null,image-button-response,60,2.0.0,127228,"[""21"",""36"",""50""]",,,
null,imagesDupe/object4.jpg,null,image-button-response,61,2.0.0,129232,"[""21"",""36"",""50""]",observation,,
3345,"<h3>Production Instructions</h3>  <p>Next, you will be shown the same objects again.   Please name these objects like you saw in the observation stage.   This will repeat several times.</p>",0,html-button-response,62,2.0.0,132579,"[""21"",""36"",""50""]",,,
3825,imagesDupe/object1.jpg,0,image-button-response,63,2.0.0,136408,"[""21"",""36"",""50""]",production,"[""fep"",""pax""]",fep
1363,imagesDupe/object1.jpg,0,image-button-response,64,2.0.0,137773,"[""21"",""36"",""50""]",,,
4801,imagesDupe/object4.jpg,1,image-button-response,65,2.0.0,142575,"[""21"",""36"",""50""]",production,"[""buv"",""cal""]",cal
773,imagesDupe/object4.jpg,0,image-button-response,66,2.0.0,143352,"[""21"",""36"",""50""]",,,
1196,imagesDupe/object4.jpg,0,image-button-response,67,2.0.0,144550,"[""21"",""36"",""50""]",production,"[""buv"",""cal""]",buv
912,imagesDupe/object4.jpg,0,image-button-response,68,2.0.0,145464,"[""21"",""36"",""50""]",,,
2111,imagesDupe/object1.jpg,1,image-button-response,69,2.0.0,147578,"[""21"",""36"",""50""]",production,"[""pax"",""fep""]",fep
836,imagesDupe/object1.jpg,0,image-button-response,70,2.0.0,148416,"[""21"",""36"",""50""]",,,
3165,imagesDupe/object1.jpg,1,image-button-response,71,2.0.0,151582,"[""21"",""36"",""50""]",production,"[""fep"",""pax""]",pax
684,imagesDupe/object1.jpg,0,image-button-response,72,2.0.0,152269,"[""21"",""36"",""50""]",,,
1576,imagesDupe/object2.jpg,0,image-button-response,73,2.0.0,153847,"[""21"",""36"",""50""]",production,"[""qar"",""tas""]",qar
742,imagesDupe/object2.jpg,0,image-button-response,74,2.0.0,154593,"[""21"",""36"",""50""]",,,
1365,imagesDupe/object1.jpg,0,image-button-response,75,2.0.0,155960,"[""21"",""36"",""50""]",production,"[""fep"",""pax""]",fep
766,imagesDupe/object1.jpg,0,image-button-response,76,2.0.0,156729,"[""21"",""36"",""50""]",,,
2434,imagesDupe/object4.jpg,1,image-button-response,77,2.0.0,159165,"[""21"",""36"",""50""]",production,"[""buv"",""cal""]",cal
692,imagesDupe/object4.jpg,0,image-button-response,78,2.0.0,159860,"[""21"",""36"",""50""]",,,
2328,imagesDupe/object1.jpg,0,image-button-response,79,2.0.0,162191,"[""21"",""36"",""50""]",production,"[""fep"",""pax""]",fep
637,imagesDupe/object1.jpg,0,image-button-response,80,2.0.0,162831,"[""21"",""36"",""50""]",,,
1082,imagesDupe/object2.jpg,0,image-button-response,81,2.0.0,163916,"[""21"",""36"",""50""]",production,"[""qar"",""tas""]",qar
693,imagesDupe/object2.jpg,0,image-button-response,82,2.0.0,164611,"[""21"",""36"",""50""]",,,
1309,imagesDupe/object1.jpg,1,image-button-response,83,2.0.0,165922,"[""21"",""36"",""50""]",production,"[""pax"",""fep""]",fep
652,imagesDupe/object1.jpg,0,image-button-response,84,2.0.0,166578,"[""21"",""36"",""50""]",,,
993,imagesDupe/object2.jpg,0,image-button-response,85,2.0.0,167573,"[""21"",""36"",""50""]",production,"[""qar"",""tas""]",qar
807,imagesDupe/object2.jpg,0,image-button-response,86,2.0.0,168382,"[""21"",""36"",""50""]",,,
1390,imagesDupe/object4.jpg,0,image-button-response,87,2.0.0,169774,"[""21"",""36"",""50""]",production,"[""buv"",""cal""]",buv
588,imagesDupe/object4.jpg,0,image-button-response,88,2.0.0,170365,"[""21"",""36"",""50""]",,,
1269,imagesDupe/object4.jpg,1,image-button-response,89,2.0.0,171636,"[""21"",""36"",""50""]",production,"[""cal"",""buv""]",buv
709,imagesDupe/object4.jpg,0,image-button-response,90,2.0.0,172347,"[""21"",""36"",""50""]",,,
1544,imagesDupe/object4.jpg,1,image-button-response,91,2.0.0,173894,"[""21"",""36"",""50""]",production,"[""buv"",""cal""]",cal
604,imagesDupe/object4.jpg,0,image-button-response,92,2.0.0,174501,"[""21"",""36"",""50""]",,,
1665,imagesDupe/object4.jpg,1,image-button-response,93,2.0.0,176168,"[""21"",""36"",""50""]",production,"[""cal"",""buv""]",buv
661,imagesDupe/object4.jpg,0,image-button-response,94,2.0.0,176832,"[""21"",""36"",""50""]",,,
847,imagesDupe/object2.jpg,0,image-button-response,95,2.0.0,177681,"[""21"",""36"",""50""]",production,"[""qar"",""tas""]",qar
645,imagesDupe/object2.jpg,0,image-button-response,96,2.0.0,178328,"[""21"",""36"",""50""]",,,
2797,imagesDupe/object4.jpg,1,image-button-response,97,2.0.0,181126,"[""21"",""36"",""50""]",production,"[""cal"",""buv""]",buv
591,imagesDupe/object4.jpg,0,image-button-response,98,2.0.0,181719,"[""21"",""36"",""50""]",,,
847,imagesDupe/object2.jpg,0,image-button-response,99,2.0.0,182567,"[""21"",""36"",""50""]",production,"[""tas"",""qar""]",tas
543,imagesDupe/object2.jpg,0,image-button-response,100,2.0.0,183111,"[""21"",""36"",""50""]",,,
695,imagesDupe/object2.jpg,0,image-button-response,101,2.0.0,183808,"[""21"",""36"",""50""]",production,"[""qar"",""tas""]",qar
596,imagesDupe/object2.jpg,0,image-button-response,102,2.0.0,184406,"[""21"",""36"",""50""]",,,
1057,imagesDupe/object1.jpg,0,image-button-response,103,2.0.0,185466,"[""21"",""36"",""50""]",production,"[""fep"",""pax""]",fep
525,imagesDupe/object1.jpg,0,image-button-response,104,2.0.0,185993,"[""21"",""36"",""50""]",,,
806,imagesDupe/object2.jpg,0,image-button-response,105,2.0.0,186801,"[""21"",""36"",""50""]",production,"[""qar"",""tas""]",qar
534,imagesDupe/object2.jpg,0,image-button-response,106,2.0.0,187337,"[""21"",""36"",""50""]",,,
1071,imagesDupe/object1.jpg,0,image-button-response,107,2.0.0,188409,"[""21"",""36"",""50""]",production,"[""fep"",""pax""]",fep
541,imagesDupe/object1.jpg,0,image-button-response,108,2.0.0,188951,"[""21"",""36"",""50""]",,,
720,imagesDupe/object1.jpg,1,image-button-response,109,2.0.0,189672,"[""21"",""36"",""50""]",production,"[""pax"",""fep""]",fep
588,imagesDupe/object1.jpg,0,image-button-response,110,2.0.0,190262,"[""21"",""36"",""50""]",,,
2996,imagesDupe/object2.jpg,1,image-button-response,111,2.0.0,193260,"[""21"",""36"",""50""]",production,"[""tas"",""qar""]",qar
531,imagesDupe/object2.jpg,0,image-button-response,112,2.0.0,193793,"[""21"",""36"",""50""]",,,
1744,imagesDupe/object1.jpg,1,image-button-response,113,2.0.0,195539,"[""21"",""36"",""50""]",production,"[""pax"",""fep""]",fep
572,imagesDupe/object1.jpg,0,image-button-response,114,2.0.0,196112,"[""21"",""36"",""50""]",,,
787,imagesDupe/object2.jpg,0,image-button-response,115,2.0.0,196901,"[""21"",""36"",""50""]",production,"[""qar"",""tas""]",qar
565,imagesDupe/object2.jpg,0,image-button-response,116,2.0.0,197468,"[""21"",""36"",""50""]",,,
937,imagesDupe/object4.jpg,0,image-button-response,117,2.0.0,198408,"[""21"",""36"",""50""]",production,"[""buv"",""cal""]",buv
523,imagesDupe/object4.jpg,0,image-button-response,118,2.0.0,198934,"[""21"",""36"",""50""]",,,
847,imagesDupe/object4.jpg,1,image-button-response,119,2.0.0,199782,"[""21"",""36"",""50""]",production,"[""buv"",""cal""]",cal
944,imagesDupe/object4.jpg,0,image-button-response,120,2.0.0,200729,"[""21"",""36"",""50""]",,,
1043,imagesDupe/object2.jpg,1,image-button-response,121,2.0.0,201774,"[""21"",""36"",""50""]",production,"[""tas"",""qar""]",qar
532,imagesDupe/object2.jpg,0,image-button-response,122,2.0.0,202308,"[""21"",""36"",""50""]",,,
7685,"<h3>Perception Instructions</h3>  <p>You will be shown the same objects again.   <em> Please read the instructions carefully. </em>  During the Observation Phase, you saw different object labels.   Please estimate how often you saw each label compared to the others by adjusting the slider.   Move the slider to reflect the ratio of words you observed for each object in the Observation Phase.</p>",0,html-button-response,123,2.0.0,209994,"[""21"",""36"",""50""]",,,
3869,imagesDupe/object6.jpg,50,image-slider-response,124,null,213866,"[""21"",""36"",""50""]",,,
,,,html-keyboard-response,125,null,228196,"[""21"",""36"",""50""]",,,
1511,<h3>Finished!</h3>  <p style='text-align:left'> Thanks for taking part in our expeirment!</p>  <p style='text-align:left'>Click Continue to finish the experiment and see your raw data.   Please notify a team member when the raw data is shown on screen.</p>,0,html-button-response,126,2.0.0,229708,"[""21"",""36"",""50""]",,,