rt,stimulus,response,trial_type,trial_index,plugin_version,time_elapsed,slider_values,block,choices,label_selected,slider_start
1911,<h3>Welcome to the experiment</h3> <p style='text-align:left'>This experiment is designed to test your perceptual word learning boundaries. By clicking the option below you consent to participate in the expeirment.</p>,0,html-button-response,0,2.0.0,1935,"[""37"",""63"",""24""]",,,,
2188,<h3>Observation Instructions</h3> <p>You will observe three objects being named several times. Just sit back and watch.</p>,0,html-button-response,1,2.0.0,4128,"[""37"",""63"",""24""]",,,,
null,imagesDupe/object4.jpg,null,image-button-response,2,2.0.0,5145,"[""37"",""63"",""24""]",,,,
null,imagesDupe/object4.jpg,null,image-button-response,3,2.0.0,7159,"[""37"",""63"",""24""]",observation,,,
null,imagesDupe/object1.jpg,null,image-button-response,4,2.0.0,8180,"[""37"",""63"",""24""]",,,,
null,imagesDupe/object1.jpg,null,image-button-response,5,2.0.0,10184,"[""37"",""63"",""24""]",observation,,,
null,imagesDupe/object2.jpg,null,image-button-response,6,2.0.0,11193,"[""37"",""63"",""24""]",,,,
null,imagesDupe/object2.jpg,null,image-button-response,7,2.0.0,13198,"[""37"",""63"",""24""]",observation,,,
null,imagesDupe/object1.jpg,null,image-button-response,8,2.0.0,14208,"[""37"",""63"",""24""]",,,,
null,imagesDupe/object1.jpg,null,image-button-response,9,2.0.0,16212,"[""37"",""63"",""24""]",observation,,,
null,imagesDupe/object1.jpg,null,image-button-response,10,2.0.0,17222,"[""37"",""63"",""24""]",,,,
null,imagesDupe/object1.jpg,null,image-button-response,11,2.0.0,19227,"[""37"",""63"",""24""]",observation,,,
null,imagesDupe/object4.jpg,null,image-button-response,12,2.0.0,20264,"[""37"",""63"",""24""]",,,,
null,imagesDupe/object4.jpg,null,image-button-response,13,2.0.0,22273,"[""37"",""63"",""24""]",observation,,,
null,imagesDupe/object2.jpg,null,image-button-response,14,2.0.0,23292,"[""37"",""63"",""24""]",,,,
null,imagesDupe/object2.jpg,null,image-button-response,15,2.0.0,25303,"[""37"",""63"",""24""]",observation,,,
null,imagesDupe/object2.jpg,null,image-button-response,16,2.0.0,26324,"[""37"",""63"",""24""]",,,,
null,imagesDupe/object2.jpg,null,image-button-response,17,2.0.0,28333,"[""37"",""63"",""24""]",observation,,,
null,imagesDupe/object1.jpg,null,image-button-response,18,2.0.0,29353,"[""37"",""63"",""24""]",,,,
null,imagesDupe/object1.jpg,null,image-button-response,19,2.0.0,31363,"[""37"",""63"",""24""]",observation,,,
null,imagesDupe/object4.jpg,null,image-button-response,20,2.0.0,32382,"[""37"",""63"",""24""]",,,,
null,imagesDupe/object4.jpg,null,image-button-response,21,2.0.0,34393,"[""37"",""63"",""24""]",observation,,,
null,imagesDupe/object1.jpg,null,image-button-response,22,2.0.0,35413,"[""37"",""63"",""24""]",,,,
null,imagesDupe/object1.jpg,null,image-button-response,23,2.0.0,37423,"[""37"",""63"",""24""]",observation,,,
null,imagesDupe/object4.jpg,null,image-button-response,24,2.0.0,38442,"[""37"",""63"",""24""]",,,,
null,imagesDupe/object4.jpg,null,image-button-response,25,2.0.0,40452,"[""37"",""63"",""24""]",observation,,,
null,imagesDupe/object1.jpg,null,image-button-response,26,2.0.0,41472,"[""37"",""63"",""24""]",,,,
null,imagesDupe/object1.jpg,null,image-button-response,27,2.0.0,43487,"[""37"",""63"",""24""]",observation,,,
null,imagesDupe/object1.jpg,null,image-button-response,28,2.0.0,44503,"[""37"",""63"",""24""]",,,,
null,imagesDupe/object1.jpg,null,image-button-response,29,2.0.0,46513,"[""37"",""63"",""24""]",observation,,,
null,imagesDupe/object2.jpg,null,image-button-response,30,2.0.0,47532,"[""37"",""63"",""24""]",,,,
null,imagesDupe/object2.jpg,null,image-button-response,31,2.0.0,49543,"[""37"",""63"",""24""]",observation,,,
null,imagesDupe/object4.jpg,null,image-button-response,32,2.0.0,50562,"[""37"",""63"",""24""]",,,,
null,imagesDupe/object4.jpg,null,image-button-response,33,2.0.0,52573,"[""37"",""63"",""24""]",observation,,,
null,imagesDupe/object4.jpg,null,image-button-response,34,2.0.0,53592,"[""37"",""63"",""24""]",,,,
null,imagesDupe/object4.jpg,null,image-button-response,35,2.0.0,55602,"[""37"",""63"",""24""]",observation,,,
null,imagesDupe/object4.jpg,null,image-button-response,36,2.0.0,56622,"[""37"",""63"",""24""]",,,,
null,imagesDupe/object4.jpg,null,image-button-response,37,2.0.0,58632,"[""37"",""63"",""24""]",observation,,,
null,imagesDupe/object2.jpg,null,image-button-response,38,2.0.0,59651,"[""37"",""63"",""24""]",,,,
null,imagesDupe/object2.jpg,null,image-button-response,39,2.0.0,61667,"[""37"",""63"",""24""]",observation,,,
null,imagesDupe/object2.jpg,null,image-button-response,40,2.0.0,62682,"[""37"",""63"",""24""]",,,,
null,imagesDupe/object2.jpg,null,image-button-response,41,2.0.0,64692,"[""37"",""63"",""24""]",observation,,,
null,imagesDupe/object1.jpg,null,image-button-response,42,2.0.0,65711,"[""37"",""63"",""24""]",,,,
null,imagesDupe/object1.jpg,null,image-button-response,43,2.0.0,67722,"[""37"",""63"",""24""]",observation,,,
null,imagesDupe/object4.jpg,null,image-button-response,44,2.0.0,68742,"[""37"",""63"",""24""]",,,,
null,imagesDupe/object4.jpg,null,image-button-response,45,2.0.0,70752,"[""37"",""63"",""24""]",observation,,,
null,imagesDupe/object4.jpg,null,image-button-response,46,2.0.0,71771,"[""37"",""63"",""24""]",,,,
null,imagesDupe/object4.jpg,null,image-button-response,47,2.0.0,73782,"[""37"",""63"",""24""]",observation,,,
null,imagesDupe/object2.jpg,null,image-button-response,48,2.0.0,74802,"[""37"",""63"",""24""]",,,,
null,imagesDupe/object2.jpg,null,image-button-response,49,2.0.0,76812,"[""37"",""63"",""24""]",observation,,,
null,imagesDupe/object4.jpg,null,image-button-response,50,2.0.0,77831,"[""37"",""63"",""24""]",,,,
null,imagesDupe/object4.jpg,null,image-button-response,51,2.0.0,79842,"[""37"",""63"",""24""]",observation,,,
null,imagesDupe/object2.jpg,null,image-button-response,52,2.0.0,80861,"[""37"",""63"",""24""]",,,,
null,imagesDupe/object2.jpg,null,image-button-response,53,2.0.0,82872,"[""37"",""63"",""24""]",observation,,,
null,imagesDupe/object1.jpg,null,image-button-response,54,2.0.0,83895,"[""37"",""63"",""24""]",,,,
null,imagesDupe/object1.jpg,null,image-button-response,55,2.0.0,85904,"[""37"",""63"",""24""]",observation,,,
null,imagesDupe/object1.jpg,null,image-button-response,56,2.0.0,86922,"[""37"",""63"",""24""]",,,,
null,imagesDupe/object1.jpg,null,image-button-response,57,2.0.0,88932,"[""37"",""63"",""24""]",observation,,,
null,imagesDupe/object2.jpg,null,image-button-response,58,2.0.0,89951,"[""37"",""63"",""24""]",,,,
null,imagesDupe/object2.jpg,null,image-button-response,59,2.0.0,91962,"[""37"",""63"",""24""]",observation,,,
null,imagesDupe/object2.jpg,null,image-button-response,60,2.0.0,92981,"[""37"",""63"",""24""]",,,,
null,imagesDupe/object2.jpg,null,image-button-response,61,2.0.0,94992,"[""37"",""63"",""24""]",observation,,,
5186,"<h3>Production Instructions</h3> <p>Next, you will be shown the same objects again. Please name these objects like you saw in the observation stage. This will repeat several times.</p>",0,html-button-response,62,2.0.0,100187,"[""37"",""63"",""24""]",,,,
4671,imagesDupe/object1.jpg,0,image-button-response,63,2.0.0,104865,"[""37"",""63"",""24""]",production,"[""fep"",""pax""]",fep,
2000,imagesDupe/object1.jpg,0,image-button-response,64,2.0.0,106874,"[""37"",""63"",""24""]",,,,
2848,imagesDupe/object1.jpg,0,image-button-response,65,2.0.0,109727,"[""37"",""63"",""24""]",production,"[""pax"",""fep""]",pax,
1306,imagesDupe/object1.jpg,0,image-button-response,66,2.0.0,111039,"[""37"",""63"",""24""]",,,,
1612,imagesDupe/object1.jpg,1,image-button-response,67,2.0.0,112654,"[""37"",""63"",""24""]",production,"[""pax"",""fep""]",fep,
1146,imagesDupe/object1.jpg,0,image-button-response,68,2.0.0,113807,"[""37"",""63"",""24""]",,,,
1618,imagesDupe/object4.jpg,0,image-button-response,69,2.0.0,115433,"[""37"",""63"",""24""]",production,"[""buv"",""cal""]",buv,
1135,imagesDupe/object4.jpg,0,image-button-response,70,2.0.0,116575,"[""37"",""63"",""24""]",,,,
1876,imagesDupe/object2.jpg,0,image-button-response,71,2.0.0,118456,"[""37"",""63"",""24""]",production,"[""tas"",""qar""]",tas,
1159,imagesDupe/object2.jpg,0,image-button-response,72,2.0.0,119622,"[""37"",""63"",""24""]",,,,
3792,imagesDupe/object4.jpg,1,image-button-response,73,2.0.0,123417,"[""37"",""63"",""24""]",production,"[""cal"",""buv""]",buv,
1053,imagesDupe/object4.jpg,0,image-button-response,74,2.0.0,124476,"[""37"",""63"",""24""]",,,,
1461,imagesDupe/object2.jpg,0,image-button-response,75,2.0.0,125942,"[""37"",""63"",""24""]",production,"[""qar"",""tas""]",qar,
866,imagesDupe/object2.jpg,0,image-button-response,76,2.0.0,126814,"[""37"",""63"",""24""]",,,,
3307,imagesDupe/object1.jpg,1,image-button-response,77,2.0.0,130125,"[""37"",""63"",""24""]",production,"[""fep"",""pax""]",pax,
954,imagesDupe/object1.jpg,0,image-button-response,78,2.0.0,131085,"[""37"",""63"",""24""]",,,,
1131,imagesDupe/object1.jpg,0,image-button-response,79,2.0.0,132219,"[""37"",""63"",""24""]",production,"[""fep"",""pax""]",fep,
795,imagesDupe/object1.jpg,0,image-button-response,80,2.0.0,133020,"[""37"",""63"",""24""]",,,,
1372,imagesDupe/object4.jpg,0,image-button-response,81,2.0.0,134397,"[""37"",""63"",""24""]",production,"[""buv"",""cal""]",buv,
906,imagesDupe/object4.jpg,0,image-button-response,82,2.0.0,135309,"[""37"",""63"",""24""]",,,,
1261,imagesDupe/object4.jpg,0,image-button-response,83,2.0.0,136575,"[""37"",""63"",""24""]",production,"[""cal"",""buv""]",cal,
837,imagesDupe/object4.jpg,0,image-button-response,84,2.0.0,137417,"[""37"",""63"",""24""]",,,,
2341,imagesDupe/object2.jpg,1,image-button-response,85,2.0.0,139763,"[""37"",""63"",""24""]",production,"[""tas"",""qar""]",qar,
807,imagesDupe/object2.jpg,0,image-button-response,86,2.0.0,140578,"[""37"",""63"",""24""]",,,,
996,imagesDupe/object2.jpg,0,image-button-response,87,2.0.0,141579,"[""37"",""63"",""24""]",production,"[""qar"",""tas""]",qar,
745,imagesDupe/object2.jpg,0,image-button-response,88,2.0.0,142330,"[""37"",""63"",""24""]",,,,
1029,imagesDupe/object2.jpg,1,image-button-response,89,2.0.0,143364,"[""37"",""63"",""24""]",production,"[""tas"",""qar""]",qar,
869,imagesDupe/object2.jpg,0,image-button-response,90,2.0.0,144239,"[""37"",""63"",""24""]",,,,
2519,imagesDupe/object1.jpg,0,image-button-response,91,2.0.0,146761,"[""37"",""63"",""24""]",production,"[""fep"",""pax""]",fep,
828,imagesDupe/object1.jpg,0,image-button-response,92,2.0.0,147595,"[""37"",""63"",""24""]",,,,
1631,imagesDupe/object2.jpg,0,image-button-response,93,2.0.0,149230,"[""37"",""63"",""24""]",production,"[""qar"",""tas""]",qar,
761,imagesDupe/object2.jpg,0,image-button-response,94,2.0.0,150002,"[""37"",""63"",""24""]",,,,
1093,imagesDupe/object2.jpg,1,image-button-response,95,2.0.0,151099,"[""37"",""63"",""24""]",production,"[""qar"",""tas""]",tas,
770,imagesDupe/object2.jpg,0,image-button-response,96,2.0.0,151875,"[""37"",""63"",""24""]",,,,
1238,imagesDupe/object4.jpg,0,image-button-response,97,2.0.0,153116,"[""37"",""63"",""24""]",production,"[""buv"",""cal""]",buv,
722,imagesDupe/object4.jpg,0,image-button-response,98,2.0.0,153845,"[""37"",""63"",""24""]",,,,
1455,imagesDupe/object1.jpg,1,image-button-response,99,2.0.0,155311,"[""37"",""63"",""24""]",production,"[""pax"",""fep""]",fep,
794,imagesDupe/object1.jpg,0,image-button-response,100,2.0.0,156112,"[""37"",""63"",""24""]",,,,
1314,imagesDupe/object2.jpg,0,image-button-response,101,2.0.0,157433,"[""37"",""63"",""24""]",production,"[""qar"",""tas""]",qar,
975,imagesDupe/object2.jpg,0,image-button-response,102,2.0.0,158415,"[""37"",""63"",""24""]",,,,
1248,imagesDupe/object4.jpg,0,image-button-response,103,2.0.0,159667,"[""37"",""63"",""24""]",production,"[""buv"",""cal""]",buv,
836,imagesDupe/object4.jpg,0,image-button-response,104,2.0.0,160510,"[""37"",""63"",""24""]",,,,
1822,imagesDupe/object4.jpg,0,image-button-response,105,2.0.0,162336,"[""37"",""63"",""24""]",production,"[""buv"",""cal""]",buv,
809,imagesDupe/object4.jpg,0,image-button-response,106,2.0.0,163155,"[""37"",""63"",""24""]",,,,
7538,imagesDupe/object1.jpg,1,image-button-response,107,2.0.0,170697,"[""37"",""63"",""24""]",production,"[""fep"",""pax""]",pax,
819,imagesDupe/object1.jpg,0,image-button-response,108,2.0.0,171522,"[""37"",""63"",""24""]",,,,
1873,imagesDupe/object4.jpg,1,image-button-response,109,2.0.0,173401,"[""37"",""63"",""24""]",production,"[""buv"",""cal""]",cal,
821,imagesDupe/object4.jpg,0,image-button-response,110,2.0.0,174229,"[""37"",""63"",""24""]",,,,
1763,imagesDupe/object2.jpg,0,image-button-response,111,2.0.0,175995,"[""37"",""63"",""24""]",production,"[""qar"",""tas""]",qar,
696,imagesDupe/object2.jpg,0,image-button-response,112,2.0.0,176697,"[""37"",""63"",""24""]",,,,
1313,imagesDupe/object1.jpg,1,image-button-response,113,2.0.0,178014,"[""37"",""63"",""24""]",production,"[""fep"",""pax""]",pax,
1376,imagesDupe/object1.jpg,0,image-button-response,114,2.0.0,179399,"[""37"",""63"",""24""]",,,,
1221,imagesDupe/object4.jpg,1,image-button-response,115,2.0.0,180625,"[""37"",""63"",""24""]",production,"[""cal"",""buv""]",buv,
745,imagesDupe/object4.jpg,0,image-button-response,116,2.0.0,181377,"[""37"",""63"",""24""]",,,,
1514,imagesDupe/object2.jpg,0,image-button-response,117,2.0.0,182895,"[""37"",""63"",""24""]",production,"[""qar"",""tas""]",qar,
804,imagesDupe/object2.jpg,0,image-button-response,118,2.0.0,183704,"[""37"",""63"",""24""]",,,,
3049,imagesDupe/object4.jpg,1,image-button-response,119,2.0.0,186758,"[""37"",""63"",""24""]",production,"[""buv"",""cal""]",cal,
1429,imagesDupe/object4.jpg,0,image-button-response,120,2.0.0,188192,"[""37"",""63"",""24""]",,,,
1287,imagesDupe/object1.jpg,0,image-button-response,121,2.0.0,189483,"[""37"",""63"",""24""]",production,"[""pax"",""fep""]",pax,
762,imagesDupe/object1.jpg,0,image-button-response,122,2.0.0,190251,"[""37"",""63"",""24""]",,,,
10575,"<h3>Perception Instructions</h3> <p>You will be shown the same objects again. <em> Please read the instructions carefully. </em> During the Observation Phase, you saw different object labels. Please estimate how often you saw each label compared to the others by adjusting the slider. Move the slider to reflect the ratio of words you observed for each object in the Observation Phase.</p>",0,html-button-response,123,2.0.0,200830,"[""37"",""63"",""24""]",,,,
4456,imagesDupe/object6.jpg,50,image-slider-response,124,null,205310,"[""37"",""63"",""24""]",,,,50
,,,html-keyboard-response,125,null,218174,"[""37"",""63"",""24""]",,,,
2411,<h3>Finished!</h3> <p style='text-align:left'> Thanks for taking part in our expeirment!</p> <p style='text-align:left'>Click Continue to finish the experiment and see your raw data. Please notify a team member when the raw data is shown on screen.</p>,0,html-button-response,126,2.0.0,220589,"[""37"",""63"",""24""]",,,,